* Measurement data measured by REW V5.31.3
* Source: USB-C to 3.5mm Headphone Jack Adapter, USB-C to 3.5mm Headphone Jack Adapter, 0, volume: 0.138
* Format: 256k Log Swept Sine, 1 sweep at -12.0 dBFS with no timing reference
* Dated: Oct 8, 2024 4:16:50 PM
* REW Settings:
*  C-weighting compensation: Off
*  Target level: 75.0 dB
* Note: 
* Measurement: R
* Smoothing: None
* Frequency Step: 1/48 octave
* Start Frequency: 20.300 Hz
*
* Freq(Hz)	SPL(dB)	Phase(degrees)
20.299999	105.679	-167.5137
20.600000	105.684	-168.1202
20.900000	105.681	-168.6751
21.200001	105.677	-169.2334
21.400000	105.674	-169.6086
21.799999	105.670	-170.3578
22.000000	105.669	-170.7254
22.400000	105.668	-171.4309
22.700001	105.667	-171.9239
23.000000	105.667	-172.3862
23.299999	105.667	-172.8262
23.600000	105.667	-173.2573
24.000000	105.665	-173.8413
24.299999	105.661	-174.2946
24.700001	105.652	-174.9162
25.000000	105.644	-175.3847
25.400000	105.636	-175.9993
25.799999	105.633	-176.5988
26.200001	105.635	-177.1915
26.500000	105.638	-177.6362
26.900000	105.638	-178.2234
27.200001	105.632	-178.6488
27.600000	105.618	-179.1775
28.000000	105.597	-179.6545
28.500000	105.572	179.8000
29.000000	105.553	179.2530
29.500000	105.539	178.6648
30.000000	105.528	178.0445
30.400000	105.518	177.5489
30.700001	105.510	177.1876
31.100000	105.498	176.7229
31.500000	105.485	176.2746
32.000000	105.465	175.7306
32.500000	105.443	175.2007
33.000000	105.420	174.6804
33.500000	105.400	174.1610
34.000000	105.381	173.6378
34.500000	105.362	173.1179
35.000000	105.341	172.6162
35.500000	105.318	172.1410
36.000000	105.296	171.6834
36.500000	105.275	171.2252
37.000000	105.254	170.7556
37.500000	105.232	170.2822
38.200001	105.200	169.6520
38.700001	105.178	169.2363
39.500000	105.145	168.5839
40.000000	105.124	168.1574
40.599998	105.093	167.6428
41.200001	105.061	167.1559
41.799999	105.033	166.6924
42.500000	105.001	166.1476
43.099998	104.970	165.6821
43.700001	104.937	165.2386
44.400002	104.904	164.7250
45.000000	104.876	164.2552
45.500000	104.849	163.8590
46.200001	104.805	163.3599
46.799999	104.770	162.9948
47.500000	104.737	162.5705
48.200001	104.704	162.1011
48.700001	104.678	161.7620
49.400002	104.642	161.3084
50.000000	104.611	160.9158
50.799999	104.566	160.3831
51.500000	104.528	159.9547
52.200001	104.501	159.5279
53.000000	104.467	158.9967
53.799999	104.416	158.5546
54.500000	104.373	158.2535
55.200001	104.336	157.8877
56.000000	104.285	157.4037
57.000000	104.228	156.8878
58.000000	104.180	156.3611
59.000000	104.121	155.9136
60.000000	104.075	155.4551
60.799999	104.032	154.9934
61.500000	103.987	154.6376
62.200001	103.947	154.3259
63.000000	103.904	153.9500
64.000000	103.849	153.4783
65.000000	103.796	153.0230
66.000000	103.742	152.6032
67.000000	103.691	152.2107
68.000000	103.635	151.7714
69.000000	103.577	151.3630
70.000000	103.531	150.9466
71.000000	103.475	150.5391
72.000000	103.420	150.2174
73.000000	103.368	149.8144
74.000000	103.307	149.4272
75.000000	103.257	149.1092
76.199997	103.197	148.6745
77.500000	103.125	148.2377
78.800003	103.057	147.8127
80.000000	102.996	147.4120
81.199997	102.939	147.0305
82.500000	102.871	146.6104
83.800003	102.797	146.2711
85.000000	102.738	145.9129
86.199997	102.678	145.5482
87.500000	102.611	145.1987
88.500000	102.561	144.9290
90.000000	102.486	144.5343
91.199997	102.423	144.2120
92.500000	102.358	143.8960
93.800003	102.295	143.5563
95.000000	102.237	143.2642
96.199997	102.182	142.9721
97.500000	102.119	142.6959
98.800003	102.056	142.3985
100.000000	101.999	142.1329
101.500000	101.929	141.8210
103.000000	101.856	141.5161
104.400002	101.791	141.2303
106.000000	101.714	140.9099
107.500000	101.654	140.6325
109.000000	101.581	140.3364
110.599998	101.515	140.0733
112.000000	101.452	139.7961
113.800003	101.386	139.4839
115.000000	101.322	139.3339
117.199997	101.231	138.9658
118.000000	101.210	138.9166
120.599998	101.030	138.5950
122.000000	101.036	138.1221
124.099998	100.944	137.9602
125.000000	100.908	137.7920
126.500000	100.851	137.5820
128.000000	100.791	137.4067
131.500000	100.653	136.8911
132.000000	100.634	136.8318
134.000000	100.558	136.5937
136.000000	100.482	136.3321
138.000000	100.409	136.1385
140.000000	100.335	135.8795
143.000000	100.224	135.5574
145.000000	100.151	135.3651
147.500000	100.059	135.1114
150.000000	99.972	134.8777
152.500000	99.886	134.6343
155.000000	99.797	134.4403
157.500000	99.711	134.2582
160.000000	99.626	134.0877
162.500000	99.550	133.9628
165.000000	99.463	133.8248
167.500000	99.393	133.7279
170.000000	99.320	133.6656
172.500000	99.268	133.5471
175.000000	99.217	133.4133
177.500000	99.165	133.2082
180.000000	99.113	132.9738
182.500000	99.048	132.7264
185.000000	98.984	132.5099
187.500000	98.915	132.2906
190.000000	98.848	132.0975
192.500000	98.780	131.9270
195.000000	98.716	131.7731
197.500000	98.650	131.6207
200.000000	98.586	131.4878
203.000000	98.512	131.3261
206.000000	98.438	131.1878
209.000000	98.369	131.0297
212.000000	98.298	130.8977
214.000000	98.253	130.8116
218.000000	98.164	130.6516
220.000000	98.122	130.5707
224.000000	98.036	130.4188
227.000000	97.973	130.2959
230.000000	97.913	130.1925
233.000000	97.853	130.0823
236.000000	97.795	129.9798
240.000000	97.720	129.8842
243.000000	97.665	129.7637
247.000000	97.591	129.6441
250.000000	97.539	129.5656
254.000000	97.470	129.4398
258.000000	97.407	129.3369
262.000000	97.341	129.2271
265.000000	97.294	129.1519
269.000000	97.231	129.0440
272.000000	97.186	128.9894
276.000000	97.129	128.8860
280.000000	97.072	128.7859
285.000000	97.003	128.6751
290.000000	96.936	128.5712
295.000000	96.873	128.4568
300.000000	96.807	128.3586
304.000000	96.763	128.2639
307.000000	96.729	128.2059
311.000000	96.685	128.1331
315.000000	96.640	128.0456
320.000000	96.588	127.9673
325.000000	96.535	127.8639
330.000000	96.487	127.7577
335.000000	96.439	127.6848
340.000000	96.395	127.6055
345.000000	96.353	127.5017
350.000000	96.308	127.4171
355.000000	96.270	127.3232
360.000000	96.231	127.2524
365.000000	96.195	127.1926
370.000000	96.161	127.1248
375.000000	96.128	127.0532
382.000000	96.091	126.9899
387.000000	96.066	126.9393
395.000000	96.040	126.8276
400.000000	96.026	126.7324
406.000000	96.012	126.5846
412.000000	95.998	126.3997
418.000000	95.985	126.1960
425.000000	95.965	125.9243
431.000000	95.946	125.6962
437.000000	95.925	125.4778
444.000000	95.903	125.2401
450.000000	95.880	125.0265
455.000000	95.865	124.8729
462.000000	95.844	124.6332
468.000000	95.824	124.4391
475.000000	95.811	124.2065
482.000000	95.792	123.9716
487.000000	95.781	123.8058
494.000000	95.765	123.5656
500.000000	95.756	123.3665
508.000000	95.741	123.0824
515.000000	95.727	122.8327
522.000000	95.715	122.5892
530.000000	95.704	122.3031
538.000000	95.693	122.0145
545.000000	95.683	121.7601
552.000000	95.672	121.4885
560.000000	95.661	121.2023
570.000000	95.650	120.8465
580.000000	95.637	120.4643
590.000000	95.627	120.1184
600.000000	95.613	119.7537
608.000000	95.604	119.4644
615.000000	95.596	119.2264
622.000000	95.591	118.9790
630.000000	95.583	118.7159
640.000000	95.571	118.3765
650.000000	95.564	118.0404
660.000000	95.551	117.7355
670.000000	95.544	117.4061
680.000000	95.540	117.1208
690.000000	95.530	116.8512
700.000000	95.525	116.5652
710.000000	95.523	116.3082
720.000000	95.520	116.0360
730.000000	95.515	115.8229
740.000000	95.516	115.5792
750.000000	95.517	115.3630
762.000000	95.517	115.1248
775.000000	95.524	114.8777
788.000000	95.534	114.6632
800.000000	95.544	114.5004
812.000000	95.561	114.3604
825.000000	95.582	114.2178
838.000000	95.610	114.0726
850.000000	95.643	113.9799
862.000000	95.681	113.8880
875.000000	95.727	113.7915
885.000000	95.768	113.7306
900.000000	95.841	113.6136
912.000000	95.897	113.5170
925.000000	95.973	113.3993
938.000000	96.053	113.2722
950.000000	96.133	113.1126
962.000000	96.216	112.9229
975.000000	96.313	112.7189
988.000000	96.413	112.4620
1000.000000	96.509	112.2091
1015.000000	96.632	111.8481
1030.000000	96.759	111.4292
1044.000000	96.877	110.9936
1060.000000	97.019	110.4721
1075.000000	97.149	109.9108
1090.000000	97.286	109.3162
1106.000000	97.426	108.6125
1120.000000	97.546	107.9568
1138.000000	97.704	107.0558
1150.000000	97.805	106.4278
1172.000000	97.985	105.1999
1180.000000	98.049	104.7243
1206.000000	98.249	103.1508
1220.000000	98.350	102.2608
1241.000000	98.494	100.9162
1250.000000	98.552	100.3089
1265.000000	98.648	99.3232
1280.000000	98.736	98.3246
1315.000000	98.933	95.9642
1320.000000	98.959	95.6318
1340.000000	99.063	94.2693
1360.000000	99.160	92.9125
1380.000000	99.252	91.5550
1400.000000	99.340	90.1743
1430.000000	99.460	88.1142
1450.000000	99.537	86.7568
1475.000000	99.627	85.0703
1500.000000	99.715	83.3955
1525.000000	99.796	81.7050
1550.000000	99.881	80.0365
1575.000000	99.960	78.3746
1600.000000	100.041	76.6964
1625.000000	100.123	75.0071
1650.000000	100.204	73.2991
1675.000000	100.286	71.5838
1700.000000	100.367	69.8332
1725.000000	100.449	68.0463
1750.000000	100.530	66.2278
1775.000000	100.611	64.3649
1800.000000	100.689	62.4634
1825.000000	100.765	60.5077
1850.000000	100.840	58.5052
1875.000000	100.911	56.4431
1900.000000	100.976	54.3409
1925.000000	101.036	52.1788
1950.000000	101.088	49.9792
1975.000000	101.134	47.7545
2000.000000	101.171	45.4611
2030.000000	101.205	42.6844
2060.000000	101.224	39.8636
2090.000000	101.227	37.0329
2120.000000	101.216	34.1952
2140.000000	101.200	32.2979
2180.000000	101.151	28.5600
2200.000000	101.115	26.7112
2240.000000	101.033	23.0901
2270.000000	100.960	20.4653
2300.000000	100.876	17.9098
2330.000000	100.789	15.4351
2360.000000	100.699	13.0561
2400.000000	100.577	10.0183
2430.000000	100.487	7.8367
2470.000000	100.371	5.0668
2500.000000	100.287	3.0814
2540.000000	100.183	0.5641
2580.000000	100.087	-1.8138
2620.000000	100.005	-4.0637
2650.000000	99.952	-5.6685
2690.000000	99.893	-7.6633
2720.000000	99.863	-9.0924
2760.000000	99.835	-10.9066
2800.000000	99.830	-12.6052
2850.000000	99.857	-14.6449
2900.000000	99.919	-16.6150
2950.000000	100.017	-18.5486
3000.000000	100.146	-20.5200
3040.000000	100.271	-22.1717
3070.000000	100.373	-23.4681
3110.000000	100.514	-25.3071
3150.000000	100.656	-27.2592
3200.000000	100.822	-29.8591
3250.000000	100.956	-32.6336
3300.000000	101.054	-35.4851
3350.000000	101.098	-38.3204
3400.000000	101.095	-41.0639
3450.000000	101.040	-43.5988
3500.000000	100.939	-45.8197
3550.000000	100.806	-47.6722
3600.000000	100.654	-49.0896
3650.000000	100.499	-50.0729
3700.000000	100.359	-50.5934
3750.000000	100.251	-50.7908
3820.000000	100.166	-50.6069
3870.000000	100.159	-50.3138
3950.000000	100.221	-49.7357
4000.000000	100.301	-49.3710
4060.000000	100.431	-49.0734
4120.000000	100.583	-48.8892
4180.000000	100.743	-48.8615
4250.000000	100.939	-49.0245
4310.000000	101.098	-49.3216
4370.000000	101.246	-49.7596
4440.000000	101.392	-50.3958
4500.000000	101.485	-51.0316
4550.000000	101.542	-51.5819
4620.000000	101.581	-52.3353
4680.000000	101.580	-52.8992
4750.000000	101.545	-53.4062
4820.000000	101.477	-53.7063
4870.000000	101.414	-53.7635
4940.000000	101.315	-53.6503
5000.000000	101.227	-53.3466
5080.000000	101.105	-52.7157
5150.000000	101.006	-51.9627
5220.000000	100.908	-51.0557
5300.000000	100.800	-49.7849
5380.000000	100.707	-48.3167
5450.000000	100.641	-46.8655
5520.000000	100.589	-45.2684
5600.000000	100.552	-43.3179
5700.000000	100.550	-40.7375
5800.000000	100.589	-38.0475
5900.000000	100.682	-35.3300
6000.000000	100.819	-32.6635
6080.000000	100.965	-30.6298
6150.000000	101.118	-28.9019
6220.000000	101.286	-27.3170
6300.000000	101.502	-25.6804
6400.000000	101.799	-23.9510
6500.000000	102.108	-22.6199
6600.000000	102.417	-21.7302
6700.000000	102.702	-21.3270
6800.000000	102.946	-21.3546
6900.000000	103.128	-21.7022
7000.000000	103.234	-22.2556
7100.000000	103.266	-22.8217
7200.000000	103.234	-23.2426
7300.000000	103.161	-23.4990
7400.000000	103.048	-23.5630
7500.000000	102.904	-23.4158
7620.000000	102.723	-22.9230
7750.000000	102.535	-22.2015
7880.000000	102.353	-21.4504
8000.000000	102.184	-20.8914
8120.000000	101.993	-20.5566
8250.000000	101.723	-20.3940
8380.000000	101.377	-20.3291
8500.000000	100.969	-20.2896
8620.000000	100.452	-20.0256
8750.000000	99.799	-18.9945
8850.000000	99.268	-17.8567
9000.000000	98.405	-15.1475
9120.000000	97.735	-12.0560
9250.000000	97.063	-8.0363
9380.000000	96.465	-3.4626
9500.000000	95.991	1.0820
9620.000000	95.593	5.8737
9750.000000	95.263	10.8052
9880.000000	94.999	15.7649
10000.000000	94.803	20.1689
10150.000000	94.629	25.3483
10300.000000	94.496	30.2643
10440.000000	94.393	34.5727
10600.000000	94.331	39.4771
10750.000000	94.354	43.9454
10900.000000	94.483	48.0096
11060.000000	94.725	51.5287
11200.000000	95.011	53.7235
11380.000000	95.383	54.8315
11500.000000	95.576	54.5378
11720.000000	95.674	52.3240
11800.000000	95.594	51.1796
12060.000000	94.798	48.6058
12200.000000	94.184	49.3827
12410.000000	93.445	53.0707
12500.000000	93.214	55.3041
12650.000000	93.003	59.5208
12800.000000	93.032	64.0196
13150.000000	93.921	71.9500
13200.000000	94.114	72.6348
13400.000000	94.993	73.9778
13600.000000	95.963	73.0061
13800.000000	96.926	69.5597
14000.000000	97.743	63.7497
14300.000000	98.510	52.4098
14500.000000	98.765	44.2215
14750.000000	98.938	33.6619
15000.000000	99.056	22.3195
15250.000000	99.147	8.8030
15500.000000	99.003	-6.7722
15750.000000	98.552	-23.5216
16000.000000	97.899	-40.0901
16250.000000	97.346	-56.3541
16500.000000	97.166	-73.9488
16750.000000	97.364	-95.6978
17000.000000	97.563	-123.6849
17250.000000	97.362	-157.3185
17500.000000	96.445	165.0971
17750.000000	94.910	127.0026
18000.000000	93.138	87.5571
18250.000000	90.744	45.2731
18500.000000	87.380	3.8591
18750.000000	83.234	-29.7300
19000.000000	82.043	-48.8656
19250.000000	82.852	-102.0139
19500.000000	81.081	-168.2118
19750.000000	78.415	120.4152
